,accel_x,accel_y,accel_z,gyro_x_ser,gyro_y_ser,gyro_z_ser
0,0.028730420395731926,0.028730420395731926,0.028730420395731926,0.0010652969358488917,0.0010652969358488917,0.0
1,-0.043095629662275314,-0.043095629662275314,-0.043095629662275314,0.0031958906911313534,0.0031958906911313534,0.0021305938716977835
2,-0.047884032130241394,-0.047884032130241394,-0.047884032130241394,0.0021305938716977835,0.0021305938716977835,0.0021305938716977835
3,-0.028730420395731926,-0.028730420395731926,-0.028730420395731926,0.0021305938716977835,0.0031958906911313534,0.0021305938716977835
4,-0.043095629662275314,-0.043095629662275314,-0.043095629662275314,0.0031958906911313534,0.0021305938716977835,0.0031958906911313534
5,-0.033518824726343155,-0.033518824726343155,-0.033518824726343155,0.0053264847956597805,0.0021305938716977835,0.004261187743395567
6,-0.023942016065120697,-0.023942016065120697,-0.023942016065120697,0.0031958906911313534,0.004261187743395567,0.0010652969358488917
7,-0.019153613597154617,-0.019153613597154617,-0.019153613597154617,0.0010652969358488917,0.0031958906911313534,0.0010652969358488917
8,-0.023942016065120697,-0.023942016065120697,-0.023942016065120697,0.0031958906911313534,0.0031958906911313534,0.0021305938716977835
9,-0.033518824726343155,-0.033518824726343155,-0.033518824726343155,0.0021305938716977835,0.004261187743395567,0.0010652969358488917
10,0.004788403399288654,0.004788403399288654,0.004788403399288654,0.0021305938716977835,0.0031958906911313534,0.0031958906911313534
11,-0.033518824726343155,-0.033518824726343155,-0.033518824726343155,0.0031958906911313534,0.004261187743395567,0.0010652969358488917
12,-0.043095629662275314,-0.043095629662275314,-0.043095629662275314,0.0010652969358488917,0.0053264847956597805,0.004261187743395567
13,0.009576806798577309,0.009576806798577309,0.009576806798577309,0.0021305938716977835,0.004261187743395567,0.0031958906911313534
14,-0.06703764945268631,-0.06703764945268631,-0.06703764945268631,0.0021305938716977835,0.0053264847956597805,0.0010652969358488917
15,0.009576806798577309,0.009576806798577309,0.009576806798577309,0.0021305938716977835,0.004261187743395567,0.0010652969358488917
16,-0.023942016065120697,-0.023942016065120697,-0.023942016065120697,0.0021305938716977835,0.0021305938716977835,0.0021305938716977835
17,-0.033518824726343155,-0.033518824726343155,-0.033518824726343155,0.004261187743395567,0.004261187743395567,0.0021305938716977835
18,0.0,0.0,0.0,0.0010652969358488917,0.0021305938716977835,0.0031958906911313534
19,-0.038307227194309235,-0.038307227194309235,-0.038307227194309235,0.0053264847956597805,0.004261187743395567,0.0010652969358488917
20,0.023942016065120697,0.023942016065120697,0.023942016065120697,0.0031958906911313534,0.0021305938716977835,0.0031958906911313534
21,0.0,0.0,0.0,0.004261187743395567,0.0031958906911313534,0.0031958906911313534
22,-0.090979665517807,-0.090979665517807,-0.090979665517807,0.0010652969358488917,0.0010652969358488917,0.0010652969358488917
23,-0.004788403399288654,-0.004788403399288654,-0.004788403399288654,0.0031958906911313534,0.0031958906911313534,0.0031958906911313534
24,-0.038307227194309235,-0.038307227194309235,-0.038307227194309235,0.0031958906911313534,0.004261187743395567,0.0010652969358488917
25,0.0,0.0,0.0,0.0021305938716977835,0.0031958906911313534,0.0010652969358488917
26,0.023942016065120697,0.023942016065120697,0.023942016065120697,0.0010652969358488917,0.0021305938716977835,0.0031958906911313534
27,-0.06224924325942993,-0.06224924325942993,-0.06224924325942993,0.0031958906911313534,0.0031958906911313534,0.0
28,-0.028730420395731926,-0.028730420395731926,-0.028730420395731926,0.0010652969358488917,0.0031958906911313534,0.0053264847956597805
29,-0.043095629662275314,-0.043095629662275314,-0.043095629662275314,0.0053264847956597805,0.0031958906911313534,0.0
30,0.0,0.0,0.0,0.0031958906911313534,0.0010652969358488917,0.0010652969358488917
31,0.004788403399288654,0.004788403399288654,0.004788403399288654,0.0031958906911313534,0.004261187743395567,0.0021305938716977835
32,-0.05267243832349777,-0.05267243832349777,-0.05267243832349777,0.004261187743395567,0.0021305938716977835,0.0
33,-0.023942016065120697,-0.023942016065120697,-0.023942016065120697,0.004261187743395567,0.0021305938716977835,0.0010652969358488917
34,-0.07182604819536209,-0.07182604819536209,-0.07182604819536209,0.0031958906911313534,0.0031958906911313534,0.0031958906911313534
35,-0.047884032130241394,-0.047884032130241394,-0.047884032130241394,0.0031958906911313534,0.004261187743395567,0.0031958906911313534
36,-0.043095629662275314,-0.043095629662275314,-0.043095629662275314,0.0031958906911313534,0.004261187743395567,0.0010652969358488917
37,-0.05267243832349777,-0.05267243832349777,-0.05267243832349777,0.0053264847956597805,0.0,0.0
38,-0.038307227194309235,-0.038307227194309235,-0.038307227194309235,0.0031958906911313534,0.0021305938716977835,0.004261187743395567
39,-0.038307227194309235,-0.038307227194309235,-0.038307227194309235,0.004261187743395567,0.0031958906911313534,0.0021305938716977835
40,-0.06224924325942993,-0.06224924325942993,-0.06224924325942993,0.0021305938716977835,0.004261187743395567,0.0010652969358488917
41,0.047884032130241394,0.047884032130241394,0.047884032130241394,0.0031958906911313534,0.0031958906911313534,0.0021305938716977835
42,0.019153613597154617,0.019153613597154617,0.019153613597154617,0.0031958906911313534,0.0021305938716977835,0.0021305938716977835
43,-0.028730420395731926,-0.028730420395731926,-0.028730420395731926,0.0021305938716977835,0.0031958906911313534,0.0010652969358488917
44,0.028730420395731926,0.028730420395731926,0.028730420395731926,0.004261187743395567,0.0031958906911313534,0.0021305938716977835
45,-0.014365210197865963,-0.014365210197865963,-0.014365210197865963,0.0031958906911313534,0.004261187743395567,0.0021305938716977835
46,-0.038307227194309235,-0.038307227194309235,-0.038307227194309235,0.0010652969358488917,0.0031958906911313534,0.0031958906911313534
47,-0.07182604819536209,-0.07182604819536209,-0.07182604819536209,0.0031958906911313534,0.0053264847956597805,0.0031958906911313534
48,-0.009576806798577309,-0.009576806798577309,-0.009576806798577309,0.004261187743395567,0.0010652969358488917,0.0010652969358488917
49,-0.019153613597154617,-0.019153613597154617,-0.019153613597154617,0.004261187743395567,0.0031958906911313534,0.0010652969358488917
50,0.019153613597154617,0.019153613597154617,0.019153613597154617,0.0010652969358488917,0.0010652969358488917,0.0010652969358488917
51,-0.06224924325942993,-0.06224924325942993,-0.06224924325942993,0.0010652969358488917,0.004261187743395567,0.0
52,-0.043095629662275314,-0.043095629662275314,-0.043095629662275314,0.0021305938716977835,0.0021305938716977835,0.004261187743395567
53,-0.009576806798577309,-0.009576806798577309,-0.009576806798577309,0.0031958906911313534,0.0021305938716977835,0.0010652969358488917
54,-0.004788403399288654,-0.004788403399288654,-0.004788403399288654,0.004261187743395567,0.0031958906911313534,0.004261187743395567
55,-0.004788403399288654,-0.004788403399288654,-0.004788403399288654,0.0031958906911313534,0.0031958906911313534,0.0010652969358488917
56,-0.038307227194309235,-0.038307227194309235,-0.038307227194309235,0.0021305938716977835,0.0021305938716977835,0.0010652969358488917
57,-0.014365210197865963,-0.014365210197865963,-0.014365210197865963,0.004261187743395567,0.004261187743395567,0.0010652969358488917
58,-0.014365210197865963,-0.014365210197865963,-0.014365210197865963,0.0021305938716977835,0.0021305938716977835,0.0021305938716977835
59,0.004788403399288654,0.004788403399288654,0.004788403399288654,0.0053264847956597805,0.004261187743395567,0.0021305938716977835
60,-0.028730420395731926,-0.028730420395731926,-0.028730420395731926,0.0031958906911313534,0.0031958906911313534,0.0
61,0.014365210197865963,0.014365210197865963,0.014365210197865963,0.004261187743395567,0.0031958906911313534,0.0031958906911313534
62,0.0,0.0,0.0,0.0031958906911313534,0.0010652969358488917,0.0010652969358488917
63,0.0,0.0,0.0,0.0031958906911313534,0.004261187743395567,0.0031958906911313534
64,-0.090979665517807,-0.090979665517807,-0.090979665517807,0.0031958906911313534,0.0053264847956597805,0.0021305938716977835
65,0.014365210197865963,0.014365210197865963,0.014365210197865963,0.0010652969358488917,0.0053264847956597805,0.0010652969358488917
66,-0.08140286058187485,-0.08140286058187485,-0.08140286058187485,0.0031958906911313534,0.004261187743395567,0.0021305938716977835
67,0.014365210197865963,0.014365210197865963,0.014365210197865963,0.0021305938716977835,0.0021305938716977835,0.0031958906911313534
68,-0.038307227194309235,-0.038307227194309235,-0.038307227194309235,0.0031958906911313534,0.0031958906911313534,0.0021305938716977835
69,-0.028730420395731926,-0.028730420395731926,-0.028730420395731926,0.0021305938716977835,0.0053264847956597805,0.0010652969358488917
70,-0.043095629662275314,-0.043095629662275314,-0.043095629662275314,0.006391781382262707,0.0,0.004261187743395567
71,-0.028730420395731926,-0.028730420395731926,-0.028730420395731926,0.0021305938716977835,0.0031958906911313534,0.004261187743395567
72,-0.023942016065120697,-0.023942016065120697,-0.023942016065120697,0.0021305938716977835,0.004261187743395567,0.0021305938716977835
73,-0.038307227194309235,-0.038307227194309235,-0.038307227194309235,0.004261187743395567,0.0010652969358488917,0.0031958906911313534
74,0.028730420395731926,0.028730420395731926,0.028730420395731926,0.004261187743395567,0.0031958906911313534,0.0021305938716977835
75,0.004788403399288654,0.004788403399288654,0.004788403399288654,0.0021305938716977835,0.004261187743395567,0.0010652969358488917
76,-0.009576806798577309,-0.009576806798577309,-0.009576806798577309,0.0031958906911313534,0.0010652969358488917,0.0010652969358488917
77,-0.07182604819536209,-0.07182604819536209,-0.07182604819536209,0.0010652969358488917,0.0031958906911313534,0.0021305938716977835
78,-0.06224924325942993,-0.06224924325942993,-0.06224924325942993,0.0031958906911313534,0.0010652969358488917,0.0031958906911313534
79,-0.05267243832349777,-0.05267243832349777,-0.05267243832349777,0.0031958906911313534,0.0031958906911313534,0.0010652969358488917
80,-0.047884032130241394,-0.047884032130241394,-0.047884032130241394,0.004261187743395567,0.004261187743395567,0.0031958906911313534
81,-0.004788403399288654,-0.004788403399288654,-0.004788403399288654,0.0031958906911313534,0.0031958906911313534,0.0
82,-0.043095629662275314,-0.043095629662275314,-0.043095629662275314,0.004261187743395567,0.0021305938716977835,0.0031958906911313534
83,-0.023942016065120697,-0.023942016065120697,-0.023942016065120697,0.0021305938716977835,0.0031958906911313534,0.0053264847956597805
84,0.009576806798577309,0.009576806798577309,0.009576806798577309,0.0021305938716977835,0.0021305938716977835,0.0031958906911313534
85,-0.033518824726343155,-0.033518824726343155,-0.033518824726343155,0.0021305938716977835,0.0021305938716977835,0.004261187743395567
86,-0.014365210197865963,-0.014365210197865963,-0.014365210197865963,0.0021305938716977835,0.0031958906911313534,0.0010652969358488917
87,-0.047884032130241394,-0.047884032130241394,-0.047884032130241394,0.0031958906911313534,0.0021305938716977835,-0.0010652969358488917
88,-0.033518824726343155,-0.033518824726343155,-0.033518824726343155,0.0021305938716977835,0.0031958906911313534,0.0031958906911313534
89,-0.05746084079146385,-0.05746084079146385,-0.05746084079146385,0.004261187743395567,0.0021305938716977835,0.0031958906911313534
90,-0.009576806798577309,-0.009576806798577309,-0.009576806798577309,0.0021305938716977835,0.0021305938716977835,0.0021305938716977835
91,-0.033518824726343155,-0.033518824726343155,-0.033518824726343155,0.0031958906911313534,0.004261187743395567,0.0021305938716977835
92,-0.019153613597154617,-0.019153613597154617,-0.019153613597154617,0.0021305938716977835,0.0031958906911313534,0.0021305938716977835
93,-0.028730420395731926,-0.028730420395731926,-0.028730420395731926,0.004261187743395567,0.004261187743395567,0.0010652969358488917
94,-0.004788403399288654,-0.004788403399288654,-0.004788403399288654,0.0010652969358488917,0.0021305938716977835,0.0031958906911313534
95,-0.014365210197865963,-0.014365210197865963,-0.014365210197865963,0.0031958906911313534,0.0021305938716977835,0.0031958906911313534
96,-0.033518824726343155,-0.033518824726343155,-0.033518824726343155,0.0021305938716977835,0.004261187743395567,0.0021305938716977835
97,-0.05746084079146385,-0.05746084079146385,-0.05746084079146385,0.0031958906911313534,0.0031958906911313534,0.0021305938716977835
98,-0.047884032130241394,-0.047884032130241394,-0.047884032130241394,0.0031958906911313534,0.0021305938716977835,0.0031958906911313534
99,-0.05267243832349777,-0.05267243832349777,-0.05267243832349777,0.0031958906911313534,0.0053264847956597805,0.0010652969358488917
100,-0.05267243832349777,-0.05267243832349777,-0.05267243832349777,0.004261187743395567,0.0053264847956597805,0.0021305938716977835
101,-0.038307227194309235,-0.038307227194309235,-0.038307227194309235,0.004261187743395567,0.0021305938716977835,0.0010652969358488917
102,-0.009576806798577309,-0.009576806798577309,-0.009576806798577309,0.0031958906911313534,0.0,0.0031958906911313534
103,-0.009576806798577309,-0.009576806798577309,-0.009576806798577309,0.0021305938716977835,0.0031958906911313534,0.0031958906911313534
104,-0.038307227194309235,-0.038307227194309235,-0.038307227194309235,0.0010652969358488917,0.004261187743395567,0.0010652969358488917
105,-0.014365210197865963,-0.014365210197865963,-0.014365210197865963,0.004261187743395567,0.0053264847956597805,0.0031958906911313534
106,-0.08140286058187485,-0.08140286058187485,-0.08140286058187485,0.004261187743395567,0.0053264847956597805,0.0031958906911313534
107,0.019153613597154617,0.019153613597154617,0.019153613597154617,0.0053264847956597805,0.0031958906911313534,0.0021305938716977835
108,-0.014365210197865963,-0.014365210197865963,-0.014365210197865963,0.0021305938716977835,0.0031958906911313534,0.0031958906911313534
109,-0.07661445438861847,-0.07661445438861847,-0.07661445438861847,0.0010652969358488917,0.0031958906911313534,0.0021305938716977835
110,-0.038307227194309235,-0.038307227194309235,-0.038307227194309235,0.0021305938716977835,0.00745707843452692,-0.0010652969358488917
111,-0.009576806798577309,-0.009576806798577309,-0.009576806798577309,0.0021305938716977835,0.0021305938716977835,0.0021305938716977835
112,-0.033518824726343155,-0.033518824726343155,-0.033518824726343155,0.0031958906911313534,0.004261187743395567,0.0031958906911313534
113,-0.004788403399288654,-0.004788403399288654,-0.004788403399288654,0.0010652969358488917,-0.0021305938716977835,0.0021305938716977835
114,-0.05746084079146385,-0.05746084079146385,-0.05746084079146385,0.0031958906911313534,0.0031958906911313534,0.004261187743395567
115,-0.043095629662275314,-0.043095629662275314,-0.043095629662275314,0.0021305938716977835,0.0031958906911313534,0.0031958906911313534
116,0.047884032130241394,0.047884032130241394,0.047884032130241394,0.0031958906911313534,0.004261187743395567,0.004261187743395567
117,0.0,0.0,0.0,0.0053264847956597805,0.0031958906911313534,0.0031958906911313534
118,-0.004788403399288654,-0.004788403399288654,-0.004788403399288654,0.0021305938716977835,0.0010652969358488917,0.0021305938716977835
119,-0.07182604819536209,-0.07182604819536209,-0.07182604819536209,0.0021305938716977835,0.0031958906911313534,0.0010652969358488917
120,0.0,0.0,0.0,0.0053264847956597805,0.0031958906911313534,0.0031958906911313534
121,-0.019153613597154617,-0.019153613597154617,-0.019153613597154617,0.0031958906911313534,0.004261187743395567,0.0021305938716977835
122,-0.019153613597154617,-0.019153613597154617,-0.019153613597154617,0.004261187743395567,0.004261187743395567,0.0031958906911313534
123,-0.009576806798577309,-0.009576806798577309,-0.009576806798577309,0.0031958906911313534,0.0031958906911313534,0.0031958906911313534
124,-0.009576806798577309,-0.009576806798577309,-0.009576806798577309,0.004261187743395567,0.0021305938716977835,0.0021305938716977835
125,-0.038307227194309235,-0.038307227194309235,-0.038307227194309235,0.0031958906911313534,0.004261187743395567,0.0021305938716977835
126,-0.043095629662275314,-0.043095629662275314,-0.043095629662275314,0.004261187743395567,0.004261187743395567,0.0010652969358488917
127,-0.038307227194309235,-0.038307227194309235,-0.038307227194309235,0.0031958906911313534,0.0031958906911313534,0.0010652969358488917
128,-0.05267243832349777,-0.05267243832349777,-0.05267243832349777,0.0021305938716977835,0.0021305938716977835,0.0021305938716977835
129,-0.05267243832349777,-0.05267243832349777,-0.05267243832349777,0.0031958906911313534,0.0010652969358488917,0.0010652969358488917
130,0.014365210197865963,0.014365210197865963,0.014365210197865963,0.0053264847956597805,0.0031958906911313534,0.004261187743395567
131,-0.047884032130241394,-0.047884032130241394,-0.047884032130241394,0.0021305938716977835,0.0053264847956597805,0.0031958906911313534
132,-0.023942016065120697,-0.023942016065120697,-0.023942016065120697,0.0031958906911313534,0.0031958906911313534,0.0021305938716977835
133,-0.028730420395731926,-0.028730420395731926,-0.028730420395731926,0.0021305938716977835,0.0010652969358488917,0.0010652969358488917
134,-0.07182604819536209,-0.07182604819536209,-0.07182604819536209,0.0021305938716977835,0.0031958906911313534,0.0031958906911313534
135,-0.038307227194309235,-0.038307227194309235,-0.038307227194309235,0.0031958906911313534,0.0031958906911313534,0.0031958906911313534
136,-0.05746084079146385,-0.05746084079146385,-0.05746084079146385,0.0031958906911313534,0.006391781382262707,0.0021305938716977835
137,0.028730420395731926,0.028730420395731926,0.028730420395731926,0.0021305938716977835,0.0010652969358488917,0.0031958906911313534
138,-0.019153613597154617,-0.019153613597154617,-0.019153613597154617,0.0010652969358488917,0.0031958906911313534,0.0031958906911313534
139,-0.019153613597154617,-0.019153613597154617,-0.019153613597154617,0.0031958906911313534,0.0053264847956597805,0.0031958906911313534
140,-0.033518824726343155,-0.033518824726343155,-0.033518824726343155,0.0021305938716977835,0.0031958906911313534,0.0021305938716977835
141,-0.028730420395731926,-0.028730420395731926,-0.028730420395731926,0.0031958906911313534,0.004261187743395567,0.0010652969358488917
142,-0.05267243832349777,-0.05267243832349777,-0.05267243832349777,0.004261187743395567,0.0021305938716977835,0.0021305938716977835
143,-0.009576806798577309,-0.009576806798577309,-0.009576806798577309,0.0031958906911313534,0.0031958906911313534,0.004261187743395567
144,-0.019153613597154617,-0.019153613597154617,-0.019153613597154617,0.0,0.0,0.0010652969358488917
145,-0.07182604819536209,-0.07182604819536209,-0.07182604819536209,0.004261187743395567,0.0031958906911313534,0.004261187743395567
146,-0.033518824726343155,-0.033518824726343155,-0.033518824726343155,0.004261187743395567,0.0021305938716977835,0.0031958906911313534
147,-0.05746084079146385,-0.05746084079146385,-0.05746084079146385,0.0021305938716977835,0.0021305938716977835,0.0021305938716977835
148,-0.06703764945268631,-0.06703764945268631,-0.06703764945268631,0.0021305938716977835,0.004261187743395567,0.0021305938716977835
149,-0.06703764945268631,-0.06703764945268631,-0.06703764945268631,0.0021305938716977835,0.0031958906911313534,0.0031958906911313534
150,0.014365210197865963,0.014365210197865963,0.014365210197865963,0.0021305938716977835,0.0021305938716977835,0.0010652969358488917
151,-0.038307227194309235,-0.038307227194309235,-0.038307227194309235,0.0031958906911313534,0.004261187743395567,0.0010652969358488917
152,-0.009576806798577309,-0.009576806798577309,-0.009576806798577309,0.0021305938716977835,0.0031958906911313534,0.0021305938716977835
153,-0.05267243832349777,-0.05267243832349777,-0.05267243832349777,0.004261187743395567,0.0031958906911313534,0.0021305938716977835
154,0.004788403399288654,0.004788403399288654,0.004788403399288654,0.0031958906911313534,0.0031958906911313534,0.0031958906911313534
155,-0.038307227194309235,-0.038307227194309235,-0.038307227194309235,0.004261187743395567,0.004261187743395567,0.0010652969358488917
156,-0.028730420395731926,-0.028730420395731926,-0.028730420395731926,0.0031958906911313534,0.0031958906911313534,0.0021305938716977835
157,0.028730420395731926,0.028730420395731926,0.028730420395731926,0.0031958906911313534,0.0021305938716977835,0.0
158,-0.028730420395731926,-0.028730420395731926,-0.028730420395731926,0.0021305938716977835,0.0031958906911313534,0.0021305938716977835
159,0.023942016065120697,0.023942016065120697,0.023942016065120697,0.004261187743395567,0.0053264847956597805,0.0031958906911313534
160,-0.043095629662275314,-0.043095629662275314,-0.043095629662275314,0.0031958906911313534,0.0053264847956597805,0.0021305938716977835
161,0.023942016065120697,0.023942016065120697,0.023942016065120697,0.004261187743395567,0.0031958906911313534,0.0031958906911313534
162,-0.023942016065120697,-0.023942016065120697,-0.023942016065120697,0.004261187743395567,0.004261187743395567,0.0021305938716977835
163,0.009576806798577309,0.009576806798577309,0.009576806798577309,0.0010652969358488917,0.004261187743395567,0.0
164,-0.004788403399288654,-0.004788403399288654,-0.004788403399288654,0.0031958906911313534,0.0031958906911313534,0.0031958906911313534
165,0.023942016065120697,0.023942016065120697,0.023942016065120697,0.0031958906911313534,0.0031958906911313534,0.0031958906911313534
166,-0.014365210197865963,-0.014365210197865963,-0.014365210197865963,0.0021305938716977835,0.004261187743395567,0.0021305938716977835
167,-0.047884032130241394,-0.047884032130241394,-0.047884032130241394,0.0053264847956597805,0.0031958906911313534,0.0010652969358488917
168,-0.014365210197865963,-0.014365210197865963,-0.014365210197865963,0.0021305938716977835,0.0053264847956597805,0.0031958906911313534
169,0.0,0.0,0.0,0.0031958906911313534,0.0021305938716977835,0.0010652969358488917
170,0.028730420395731926,0.028730420395731926,0.028730420395731926,0.0031958906911313534,0.0031958906911313534,0.0031958906911313534
171,-0.023942016065120697,-0.023942016065120697,-0.023942016065120697,0.0021305938716977835,0.0021305938716977835,0.0021305938716977835
172,0.0,0.0,0.0,0.0031958906911313534,0.0021305938716977835,0.004261187743395567
173,-0.019153613597154617,-0.019153613597154617,-0.019153613597154617,0.0021305938716977835,0.0021305938716977835,0.0031958906911313534
174,-0.043095629662275314,-0.043095629662275314,-0.043095629662275314,0.0053264847956597805,0.0031958906911313534,0.0
175,-0.023942016065120697,-0.023942016065120697,-0.023942016065120697,0.0010652969358488917,0.0021305938716977835,0.0031958906911313534
176,-0.05746084079146385,-0.05746084079146385,-0.05746084079146385,0.0031958906911313534,0.0031958906911313534,0.0010652969358488917
177,-0.05267243832349777,-0.05267243832349777,-0.05267243832349777,0.0031958906911313534,0.0031958906911313534,0.0010652969358488917
178,-0.038307227194309235,-0.038307227194309235,-0.038307227194309235,0.0,0.0010652969358488917,0.0031958906911313534
179,-0.038307227194309235,-0.038307227194309235,-0.038307227194309235,0.0021305938716977835,0.0010652969358488917,0.0021305938716977835
180,-0.028730420395731926,-0.028730420395731926,-0.028730420395731926,0.0021305938716977835,0.0053264847956597805,0.0021305938716977835
181,0.0,0.0,0.0,0.0021305938716977835,0.0021305938716977835,0.0021305938716977835
182,-0.05746084079146385,-0.05746084079146385,-0.05746084079146385,0.004261187743395567,0.0053264847956597805,0.004261187743395567
183,-0.09576806426048279,-0.09576806426048279,-0.09576806426048279,0.0053264847956597805,0.004261187743395567,0.0031958906911313534
184,0.038307227194309235,0.038307227194309235,0.038307227194309235,0.0031958906911313534,0.0021305938716977835,0.0010652969358488917
185,0.038307227194309235,0.038307227194309235,0.038307227194309235,0.0031958906911313534,0.0010652969358488917,0.0021305938716977835
186,-0.038307227194309235,-0.038307227194309235,-0.038307227194309235,0.004261187743395567,0.004261187743395567,0.0021305938716977835
187,-0.05746084079146385,-0.05746084079146385,-0.05746084079146385,0.0031958906911313534,0.0031958906911313534,0.0021305938716977835
188,-0.004788403399288654,-0.004788403399288654,-0.004788403399288654,0.0031958906911313534,0.0010652969358488917,0.0021305938716977835
189,-0.023942016065120697,-0.023942016065120697,-0.023942016065120697,0.0031958906911313534,0.0031958906911313534,0.0021305938716977835
190,-0.004788403399288654,-0.004788403399288654,-0.004788403399288654,0.0031958906911313534,0.004261187743395567,0.0010652969358488917
191,-0.019153613597154617,-0.019153613597154617,-0.019153613597154617,0.0031958906911313534,0.0031958906911313534,0.0021305938716977835
192,-0.047884032130241394,-0.047884032130241394,-0.047884032130241394,0.0031958906911313534,0.0031958906911313534,0.004261187743395567
193,0.033518824726343155,0.033518824726343155,0.033518824726343155,0.0031958906911313534,0.0021305938716977835,0.0021305938716977835
194,-0.023942016065120697,-0.023942016065120697,-0.023942016065120697,0.0031958906911313534,0.004261187743395567,0.0
195,0.004788403399288654,0.004788403399288654,0.004788403399288654,0.0031958906911313534,0.0031958906911313534,0.0031958906911313534
196,-0.023942016065120697,-0.023942016065120697,-0.023942016065120697,0.004261187743395567,0.004261187743395567,0.0021305938716977835
197,-0.004788403399288654,-0.004788403399288654,-0.004788403399288654,0.0021305938716977835,0.004261187743395567,0.0031958906911313534
198,-0.05746084079146385,-0.05746084079146385,-0.05746084079146385,0.0021305938716977835,0.0053264847956597805,0.0021305938716977835
199,-0.06703764945268631,-0.06703764945268631,-0.06703764945268631,0.0021305938716977835,0.0031958906911313534,0.0010652969358488917
200,-0.06224924325942993,-0.06224924325942993,-0.06224924325942993,0.0031958906911313534,0.004261187743395567,0.0010652969358488917
201,0.019153613597154617,0.019153613597154617,0.019153613597154617,0.004261187743395567,0.0021305938716977835,0.0031958906911313534
202,-0.043095629662275314,-0.043095629662275314,-0.043095629662275314,0.0010652969358488917,0.0053264847956597805,0.0021305938716977835
203,-0.019153613597154617,-0.019153613597154617,-0.019153613597154617,0.0031958906911313534,0.004261187743395567,0.0010652969358488917
204,-0.004788403399288654,-0.004788403399288654,-0.004788403399288654,0.0021305938716977835,0.0021305938716977835,0.0021305938716977835
205,-0.023942016065120697,-0.023942016065120697,-0.023942016065120697,0.0021305938716977835,0.0021305938716977835,0.0021305938716977835
206,-0.038307227194309235,-0.038307227194309235,-0.038307227194309235,0.0031958906911313534,0.0031958906911313534,0.0031958906911313534
207,0.009576806798577309,0.009576806798577309,0.009576806798577309,0.0031958906911313534,0.0021305938716977835,0.0021305938716977835
208,-0.019153613597154617,-0.019153613597154617,-0.019153613597154617,0.0031958906911313534,0.0021305938716977835,0.0021305938716977835
209,0.0,0.0,0.0,0.004261187743395567,0.004261187743395567,0.0021305938716977835
210,-0.009576806798577309,-0.009576806798577309,-0.009576806798577309,0.0031958906911313534,0.0010652969358488917,0.0010652969358488917
211,0.014365210197865963,0.014365210197865963,0.014365210197865963,0.0010652969358488917,0.0021305938716977835,0.0021305938716977835
212,-0.009576806798577309,-0.009576806798577309,-0.009576806798577309,0.0021305938716977835,0.006391781382262707,0.0021305938716977835
213,-0.06703764945268631,-0.06703764945268631,-0.06703764945268631,0.004261187743395567,0.004261187743395567,0.0021305938716977835
214,-0.019153613597154617,-0.019153613597154617,-0.019153613597154617,0.0031958906911313534,0.0053264847956597805,0.0031958906911313534
215,0.0,0.0,0.0,0.004261187743395567,0.004261187743395567,0.0010652969358488917
216,0.004788403399288654,0.004788403399288654,0.004788403399288654,0.0031958906911313534,0.0010652969358488917,0.0021305938716977835
217,-0.023942016065120697,-0.023942016065120697,-0.023942016065120697,0.0031958906911313534,0.0031958906911313534,0.0021305938716977835
218,-0.019153613597154617,-0.019153613597154617,-0.019153613597154617,0.0,0.0031958906911313534,0.0031958906911313534
219,-0.038307227194309235,-0.038307227194309235,-0.038307227194309235,0.00745707843452692,0.004261187743395567,0.0010652969358488917
220,0.009576806798577309,0.009576806798577309,0.009576806798577309,0.0021305938716977835,0.0031958906911313534,0.0
221,-0.08619125932455063,-0.08619125932455063,-0.08619125932455063,0.0031958906911313534,0.0021305938716977835,0.0031958906911313534
222,-0.019153613597154617,-0.019153613597154617,-0.019153613597154617,0.0021305938716977835,0.0021305938716977835,0.0031958906911313534
223,-0.033518824726343155,-0.033518824726343155,-0.033518824726343155,0.0021305938716977835,0.0031958906911313534,0.0021305938716977835
224,-0.009576806798577309,-0.009576806798577309,-0.009576806798577309,0.0053264847956597805,0.004261187743395567,0.0021305938716977835
225,-0.033518824726343155,-0.033518824726343155,-0.033518824726343155,0.0021305938716977835,0.0021305938716977835,0.0021305938716977835
226,0.0,0.0,0.0,0.0010652969358488917,0.004261187743395567,0.004261187743395567
227,-0.023942016065120697,-0.023942016065120697,-0.023942016065120697,0.0021305938716977835,0.0021305938716977835,0.0021305938716977835
228,-0.019153613597154617,-0.019153613597154617,-0.019153613597154617,0.0031958906911313534,0.0010652969358488917,0.0021305938716977835
229,-0.023942016065120697,-0.023942016065120697,-0.023942016065120697,0.0010652969358488917,0.0031958906911313534,0.0031958906911313534
230,-0.033518824726343155,-0.033518824726343155,-0.033518824726343155,0.0021305938716977835,0.0021305938716977835,0.0031958906911313534
231,-0.033518824726343155,-0.033518824726343155,-0.033518824726343155,0.0021305938716977835,0.0021305938716977835,0.0031958906911313534
232,0.009576806798577309,0.009576806798577309,0.009576806798577309,0.0053264847956597805,0.0053264847956597805,0.0021305938716977835
233,-0.019153613597154617,-0.019153613597154617,-0.019153613597154617,0.004261187743395567,0.004261187743395567,0.0021305938716977835
234,0.0,0.0,0.0,0.0021305938716977835,0.004261187743395567,0.0031958906911313534
235,-0.047884032130241394,-0.047884032130241394,-0.047884032130241394,0.0010652969358488917,0.0021305938716977835,0.0021305938716977835
236,0.0,0.0,0.0,0.0010652969358488917,0.004261187743395567,-0.0010652969358488917
237,-0.033518824726343155,-0.033518824726343155,-0.033518824726343155,0.004261187743395567,0.0031958906911313534,0.0
238,0.038307227194309235,0.038307227194309235,0.038307227194309235,0.004261187743395567,0.004261187743395567,0.0021305938716977835
239,-0.06224924325942993,-0.06224924325942993,-0.06224924325942993,0.004261187743395567,0.0053264847956597805,0.0031958906911313534
240,-0.014365210197865963,-0.014365210197865963,-0.014365210197865963,0.0031958906911313534,0.004261187743395567,0.0010652969358488917
241,-0.06703764945268631,-0.06703764945268631,-0.06703764945268631,0.0010652969358488917,0.0021305938716977835,0.0031958906911313534
242,0.014365210197865963,0.014365210197865963,0.014365210197865963,0.0021305938716977835,0.0,0.0031958906911313534
243,0.004788403399288654,0.004788403399288654,0.004788403399288654,0.004261187743395567,0.0031958906911313534,0.0021305938716977835
244,-0.033518824726343155,-0.033518824726343155,-0.033518824726343155,0.0021305938716977835,0.0031958906911313534,0.0021305938716977835
245,-0.014365210197865963,-0.014365210197865963,-0.014365210197865963,0.0010652969358488917,0.0021305938716977835,0.004261187743395567
246,-0.019153613597154617,-0.019153613597154617,-0.019153613597154617,0.0010652969358488917,0.004261187743395567,0.0031958906911313534
247,-0.004788403399288654,-0.004788403399288654,-0.004788403399288654,0.0021305938716977835,0.004261187743395567,0.0010652969358488917
248,0.0,0.0,0.0,0.0031958906911313534,0.004261187743395567,0.0010652969358488917
249,-0.023942016065120697,-0.023942016065120697,-0.023942016065120697,0.0021305938716977835,0.0031958906911313534,0.0010652969358488917
250,-0.023942016065120697,-0.023942016065120697,-0.023942016065120697,0.0031958906911313534,0.0031958906911313534,0.0021305938716977835
251,0.009576806798577309,0.009576806798577309,0.009576806798577309,0.0031958906911313534,0.0021305938716977835,0.0010652969358488917
252,-0.047884032130241394,-0.047884032130241394,-0.047884032130241394,0.0053264847956597805,0.0031958906911313534,0.0031958906911313534
253,-0.004788403399288654,-0.004788403399288654,-0.004788403399288654,0.0053264847956597805,0.0021305938716977835,0.0021305938716977835
254,0.004788403399288654,0.004788403399288654,0.004788403399288654,0.0031958906911313534,0.004261187743395567,0.0
255,-0.028730420395731926,-0.028730420395731926,-0.028730420395731926,0.0021305938716977835,0.0031958906911313534,0.0021305938716977835
256,0.009576806798577309,0.009576806798577309,0.009576806798577309,0.004261187743395567,0.0031958906911313534,0.0031958906911313534
257,-0.019153613597154617,-0.019153613597154617,-0.019153613597154617,0.0021305938716977835,0.0053264847956597805,0.0021305938716977835
258,-0.014365210197865963,-0.014365210197865963,-0.014365210197865963,0.0031958906911313534,0.0010652969358488917,0.0
259,-0.043095629662275314,-0.043095629662275314,-0.043095629662275314,0.0031958906911313534,0.0053264847956597805,0.0053264847956597805
260,-0.019153613597154617,-0.019153613597154617,-0.019153613597154617,0.004261187743395567,0.0031958906911313534,0.0
261,-0.019153613597154617,-0.019153613597154617,-0.019153613597154617,0.0053264847956597805,0.0021305938716977835,0.0010652969358488917
262,-0.043095629662275314,-0.043095629662275314,-0.043095629662275314,0.0021305938716977835,0.0021305938716977835,0.0031958906911313534
263,-0.009576806798577309,-0.009576806798577309,-0.009576806798577309,0.004261187743395567,0.0021305938716977835,0.0031958906911313534
264,-0.009576806798577309,-0.009576806798577309,-0.009576806798577309,0.0031958906911313534,0.0053264847956597805,0.0010652969358488917
265,-0.047884032130241394,-0.047884032130241394,-0.047884032130241394,0.0031958906911313534,0.0021305938716977835,0.004261187743395567
266,0.033518824726343155,0.033518824726343155,0.033518824726343155,0.0021305938716977835,0.004261187743395567,0.0010652969358488917
267,-0.023942016065120697,-0.023942016065120697,-0.023942016065120697,0.0031958906911313534,0.004261187743395567,0.0021305938716977835
268,-0.047884032130241394,-0.047884032130241394,-0.047884032130241394,0.0053264847956597805,0.004261187743395567,0.0031958906911313534
269,-0.023942016065120697,-0.023942016065120697,-0.023942016065120697,0.0031958906911313534,0.0031958906911313534,0.0031958906911313534
270,0.0,0.0,0.0,0.0010652969358488917,0.0021305938716977835,0.0021305938716977835
271,-0.009576806798577309,-0.009576806798577309,-0.009576806798577309,0.0021305938716977835,0.0010652969358488917,0.0021305938716977835
272,-0.038307227194309235,-0.038307227194309235,-0.038307227194309235,0.0010652969358488917,0.0010652969358488917,0.004261187743395567
273,-0.004788403399288654,-0.004788403399288654,-0.004788403399288654,0.0021305938716977835,0.0031958906911313534,0.0021305938716977835
274,0.043095629662275314,0.043095629662275314,0.043095629662275314,0.0021305938716977835,0.004261187743395567,0.0021305938716977835
275,0.028730420395731926,0.028730420395731926,0.028730420395731926,0.0031958906911313534,0.0021305938716977835,0.0031958906911313534
276,-0.043095629662275314,-0.043095629662275314,-0.043095629662275314,0.0021305938716977835,0.0031958906911313534,0.0021305938716977835
277,-0.023942016065120697,-0.023942016065120697,-0.023942016065120697,0.0031958906911313534,0.0053264847956597805,0.0031958906911313534
278,0.004788403399288654,0.004788403399288654,0.004788403399288654,0.0010652969358488917,0.0010652969358488917,0.0021305938716977835
279,-0.019153613597154617,-0.019153613597154617,-0.019153613597154617,0.0031958906911313534,0.0021305938716977835,0.0021305938716977835
280,-0.019153613597154617,-0.019153613597154617,-0.019153613597154617,0.0031958906911313534,0.0031958906911313534,0.0031958906911313534
281,-0.043095629662275314,-0.043095629662275314,-0.043095629662275314,0.0021305938716977835,0.004261187743395567,0.0021305938716977835
282,-0.047884032130241394,-0.047884032130241394,-0.047884032130241394,0.004261187743395567,0.0021305938716977835,0.0
283,0.004788403399288654,0.004788403399288654,0.004788403399288654,0.0031958906911313534,0.0031958906911313534,0.004261187743395567
284,-0.05746084079146385,-0.05746084079146385,-0.05746084079146385,0.0010652969358488917,-0.0010652969358488917,0.0010652969358488917
285,-0.05267243832349777,-0.05267243832349777,-0.05267243832349777,0.0031958906911313534,0.004261187743395567,0.0031958906911313534
286,-0.05267243832349777,-0.05267243832349777,-0.05267243832349777,0.0010652969358488917,0.0021305938716977835,0.0031958906911313534
287,-0.023942016065120697,-0.023942016065120697,-0.023942016065120697,0.0053264847956597805,0.0021305938716977835,0.0010652969358488917
288,-0.06224924325942993,-0.06224924325942993,-0.06224924325942993,0.0010652969358488917,0.0021305938716977835,0.0031958906911313534
289,-0.004788403399288654,-0.004788403399288654,-0.004788403399288654,0.0031958906911313534,0.0031958906911313534,0.0021305938716977835
290,-0.06703764945268631,-0.06703764945268631,-0.06703764945268631,0.0021305938716977835,0.0031958906911313534,0.004261187743395567
291,-0.043095629662275314,-0.043095629662275314,-0.043095629662275314,0.004261187743395567,0.0031958906911313534,0.0031958906911313534
292,-0.014365210197865963,-0.014365210197865963,-0.014365210197865963,0.0031958906911313534,0.0021305938716977835,0.0031958906911313534
293,-0.023942016065120697,-0.023942016065120697,-0.023942016065120697,0.0021305938716977835,0.004261187743395567,0.0021305938716977835
294,-0.009576806798577309,-0.009576806798577309,-0.009576806798577309,0.004261187743395567,0.004261187743395567,0.0010652969358488917
295,-0.028730420395731926,-0.028730420395731926,-0.028730420395731926,0.004261187743395567,0.004261187743395567,0.0031958906911313534
296,-0.05267243832349777,-0.05267243832349777,-0.05267243832349777,0.0021305938716977835,0.0010652969358488917,0.0031958906911313534
297,-0.090979665517807,-0.090979665517807,-0.090979665517807,0.0010652969358488917,0.004261187743395567,0.0021305938716977835
298,-0.028730420395731926,-0.028730420395731926,-0.028730420395731926,0.0031958906911313534,0.0053264847956597805,0.0021305938716977835
299,-0.009576806798577309,-0.009576806798577309,-0.009576806798577309,0.0010652969358488917,0.004261187743395567,0.0021305938716977835
300,-0.023942016065120697,-0.023942016065120697,-0.023942016065120697,0.006391781382262707,0.0010652969358488917,0.0031958906911313534
301,-0.033518824726343155,-0.033518824726343155,-0.033518824726343155,0.0010652969358488917,0.0021305938716977835,0.0010652969358488917
302,-0.009576806798577309,-0.009576806798577309,-0.009576806798577309,0.004261187743395567,0.0021305938716977835,0.0010652969358488917
303,0.004788403399288654,0.004788403399288654,0.004788403399288654,0.0010652969358488917,0.0053264847956597805,0.0031958906911313534
304,0.028730420395731926,0.028730420395731926,0.028730420395731926,0.004261187743395567,0.0031958906911313534,0.0021305938716977835
305,-0.033518824726343155,-0.033518824726343155,-0.033518824726343155,0.0010652969358488917,0.0021305938716977835,0.0021305938716977835
306,-0.028730420395731926,-0.028730420395731926,-0.028730420395731926,0.0021305938716977835,0.0031958906911313534,0.0031958906911313534
307,-0.033518824726343155,-0.033518824726343155,-0.033518824726343155,0.004261187743395567,0.004261187743395567,0.0021305938716977835
308,-0.033518824726343155,-0.033518824726343155,-0.033518824726343155,0.004261187743395567,0.0031958906911313534,0.0021305938716977835
309,0.009576806798577309,0.009576806798577309,0.009576806798577309,0.0010652969358488917,0.0053264847956597805,0.0021305938716977835
310,-0.047884032130241394,-0.047884032130241394,-0.047884032130241394,0.004261187743395567,0.0031958906911313534,0.0021305938716977835
311,-0.004788403399288654,-0.004788403399288654,-0.004788403399288654,0.0053264847956597805,0.004261187743395567,0.0010652969358488917
312,0.0,0.0,0.0,0.004261187743395567,0.0031958906911313534,0.0010652969358488917
313,-0.023942016065120697,-0.023942016065120697,-0.023942016065120697,0.0,0.0021305938716977835,0.0021305938716977835
314,0.004788403399288654,0.004788403399288654,0.004788403399288654,0.0010652969358488917,0.0021305938716977835,0.0021305938716977835
315,-0.043095629662275314,-0.043095629662275314,-0.043095629662275314,0.0010652969358488917,0.0031958906911313534,0.0031958906911313534
316,-0.08619125932455063,-0.08619125932455063,-0.08619125932455063,0.004261187743395567,0.0021305938716977835,0.0021305938716977835
317,-0.019153613597154617,-0.019153613597154617,-0.019153613597154617,0.0021305938716977835,0.0021305938716977835,0.0031958906911313534
318,-0.08619125932455063,-0.08619125932455063,-0.08619125932455063,0.0053264847956597805,0.0031958906911313534,0.0
319,-0.07182604819536209,-0.07182604819536209,-0.07182604819536209,0.0021305938716977835,0.004261187743395567,0.0021305938716977835
320,-0.05746084079146385,-0.05746084079146385,-0.05746084079146385,0.0031958906911313534,0.0031958906911313534,0.0010652969358488917
321,-0.014365210197865963,-0.014365210197865963,-0.014365210197865963,0.0031958906911313534,0.004261187743395567,0.0010652969358488917
322,-0.08619125932455063,-0.08619125932455063,-0.08619125932455063,0.0021305938716977835,0.0021305938716977835,0.0010652969358488917
323,-0.019153613597154617,-0.019153613597154617,-0.019153613597154617,0.0010652969358488917,0.004261187743395567,0.0010652969358488917
324,-0.004788403399288654,-0.004788403399288654,-0.004788403399288654,0.0021305938716977835,0.0010652969358488917,0.0031958906911313534
325,0.019153613597154617,0.019153613597154617,0.019153613597154617,0.004261187743395567,0.0053264847956597805,0.0021305938716977835
326,-0.043095629662275314,-0.043095629662275314,-0.043095629662275314,0.0053264847956597805,0.0031958906911313534,0.004261187743395567
327,-0.019153613597154617,-0.019153613597154617,-0.019153613597154617,0.0031958906911313534,0.0010652969358488917,0.0010652969358488917
328,-0.014365210197865963,-0.014365210197865963,-0.014365210197865963,0.0010652969358488917,0.0031958906911313534,0.0021305938716977835
329,-0.023942016065120697,-0.023942016065120697,-0.023942016065120697,0.004261187743395567,0.0031958906911313534,0.0021305938716977835
330,-0.014365210197865963,-0.014365210197865963,-0.014365210197865963,0.0021305938716977835,0.0053264847956597805,0.0010652969358488917
331,-0.014365210197865963,-0.014365210197865963,-0.014365210197865963,0.0021305938716977835,0.0021305938716977835,0.0010652969358488917
332,0.009576806798577309,0.009576806798577309,0.009576806798577309,0.004261187743395567,0.004261187743395567,0.0021305938716977835
333,-0.004788403399288654,-0.004788403399288654,-0.004788403399288654,0.0010652969358488917,0.0031958906911313534,0.0031958906911313534
334,0.009576806798577309,0.009576806798577309,0.009576806798577309,0.0031958906911313534,0.004261187743395567,0.0031958906911313534
335,-0.05267243832349777,-0.05267243832349777,-0.05267243832349777,0.004261187743395567,0.006391781382262707,0.0031958906911313534
336,0.009576806798577309,0.009576806798577309,0.009576806798577309,0.006391781382262707,0.0021305938716977835,0.0021305938716977835
337,-0.033518824726343155,-0.033518824726343155,-0.033518824726343155,0.0021305938716977835,0.0021305938716977835,0.0010652969358488917
338,-0.047884032130241394,-0.047884032130241394,-0.047884032130241394,0.0021305938716977835,0.0053264847956597805,0.0021305938716977835
339,0.009576806798577309,0.009576806798577309,0.009576806798577309,0.006391781382262707,0.0010652969358488917,0.004261187743395567
340,-0.023942016065120697,-0.023942016065120697,-0.023942016065120697,0.0010652969358488917,0.0010652969358488917,0.0031958906911313534
341,0.009576806798577309,0.009576806798577309,0.009576806798577309,0.0053264847956597805,0.004261187743395567,0.0
342,0.014365210197865963,0.014365210197865963,0.014365210197865963,0.0021305938716977835,0.004261187743395567,0.0010652969358488917
343,-0.090979665517807,-0.090979665517807,-0.090979665517807,0.0021305938716977835,0.0021305938716977835,0.0021305938716977835
344,0.0,0.0,0.0,0.0031958906911313534,0.0021305938716977835,0.0021305938716977835
345,-0.06703764945268631,-0.06703764945268631,-0.06703764945268631,0.004261187743395567,0.0021305938716977835,0.0031958906911313534
346,-0.047884032130241394,-0.047884032130241394,-0.047884032130241394,0.0021305938716977835,0.0031958906911313534,0.0031958906911313534
347,-0.004788403399288654,-0.004788403399288654,-0.004788403399288654,0.0021305938716977835,0.0021305938716977835,0.0010652969358488917
348,0.009576806798577309,0.009576806798577309,0.009576806798577309,0.0031958906911313534,0.0021305938716977835,0.0031958906911313534
349,-0.009576806798577309,-0.009576806798577309,-0.009576806798577309,0.0031958906911313534,0.0021305938716977835,0.0031958906911313534
350,-0.038307227194309235,-0.038307227194309235,-0.038307227194309235,0.004261187743395567,0.0021305938716977835,0.0031958906911313534
351,-0.05746084079146385,-0.05746084079146385,-0.05746084079146385,0.0031958906911313534,0.0053264847956597805,0.0021305938716977835
352,-0.05746084079146385,-0.05746084079146385,-0.05746084079146385,0.0021305938716977835,0.0031958906911313534,0.0031958906911313534
353,-0.004788403399288654,-0.004788403399288654,-0.004788403399288654,0.006391781382262707,0.0021305938716977835,0.0010652969358488917
354,-0.023942016065120697,-0.023942016065120697,-0.023942016065120697,0.0031958906911313534,0.0031958906911313534,0.0021305938716977835
355,-0.05746084079146385,-0.05746084079146385,-0.05746084079146385,0.0031958906911313534,0.004261187743395567,0.0021305938716977835
356,0.0,0.0,0.0,0.0021305938716977835,0.0021305938716977835,0.0010652969358488917
357,-0.019153613597154617,-0.019153613597154617,-0.019153613597154617,0.0021305938716977835,0.0031958906911313534,0.0010652969358488917
358,-0.05267243832349777,-0.05267243832349777,-0.05267243832349777,0.0031958906911313534,0.006391781382262707,0.0031958906911313534
359,-0.014365210197865963,-0.014365210197865963,-0.014365210197865963,0.0021305938716977835,0.0031958906911313534,0.0021305938716977835
360,0.019153613597154617,0.019153613597154617,0.019153613597154617,0.0021305938716977835,0.0031958906911313534,0.0
361,0.004788403399288654,0.004788403399288654,0.004788403399288654,0.0031958906911313534,0.0,0.0021305938716977835
362,-0.023942016065120697,-0.023942016065120697,-0.023942016065120697,0.0021305938716977835,0.0053264847956597805,0.0010652969358488917
363,0.0,0.0,0.0,0.0021305938716977835,0.004261187743395567,0.0031958906911313534
364,-0.019153613597154617,-0.019153613597154617,-0.019153613597154617,0.0021305938716977835,0.004261187743395567,0.0031958906911313534
365,-0.009576806798577309,-0.009576806798577309,-0.009576806798577309,0.0021305938716977835,0.0021305938716977835,0.0021305938716977835
366,-0.028730420395731926,-0.028730420395731926,-0.028730420395731926,0.0021305938716977835,0.0031958906911313534,0.0010652969358488917
367,-0.038307227194309235,-0.038307227194309235,-0.038307227194309235,0.0053264847956597805,0.0021305938716977835,0.0021305938716977835
368,0.014365210197865963,0.014365210197865963,0.014365210197865963,0.0031958906911313534,0.004261187743395567,0.004261187743395567
369,0.009576806798577309,0.009576806798577309,0.009576806798577309,0.006391781382262707,0.004261187743395567,0.0021305938716977835
370,-0.043095629662275314,-0.043095629662275314,-0.043095629662275314,0.0031958906911313534,0.0031958906911313534,0.0021305938716977835
371,-0.043095629662275314,-0.043095629662275314,-0.043095629662275314,0.0031958906911313534,0.004261187743395567,0.0
372,-0.028730420395731926,-0.028730420395731926,-0.028730420395731926,0.004261187743395567,0.0021305938716977835,0.0021305938716977835
373,-0.023942016065120697,-0.023942016065120697,-0.023942016065120697,0.0031958906911313534,0.0010652969358488917,0.0021305938716977835
374,-0.043095629662275314,-0.043095629662275314,-0.043095629662275314,0.0021305938716977835,0.004261187743395567,0.0031958906911313534
375,-0.033518824726343155,-0.033518824726343155,-0.033518824726343155,0.004261187743395567,0.004261187743395567,0.004261187743395567
376,-0.004788403399288654,-0.004788403399288654,-0.004788403399288654,0.0031958906911313534,0.0,0.0031958906911313534
377,-0.019153613597154617,-0.019153613597154617,-0.019153613597154617,0.0010652969358488917,0.004261187743395567,0.0021305938716977835
378,-0.047884032130241394,-0.047884032130241394,-0.047884032130241394,0.0021305938716977835,0.0021305938716977835,0.0021305938716977835
379,-0.033518824726343155,-0.033518824726343155,-0.033518824726343155,0.004261187743395567,0.004261187743395567,0.0031958906911313534
380,-0.028730420395731926,-0.028730420395731926,-0.028730420395731926,0.0031958906911313534,0.0031958906911313534,0.0031958906911313534
381,-0.047884032130241394,-0.047884032130241394,-0.047884032130241394,0.0031958906911313534,0.006391781382262707,0.0
382,0.0,0.0,0.0,0.0031958906911313534,0.004261187743395567,0.0021305938716977835
383,0.0,0.0,0.0,0.0053264847956597805,0.006391781382262707,0.0031958906911313534
384,-0.028730420395731926,-0.028730420395731926,-0.028730420395731926,0.0031958906911313534,0.0021305938716977835,0.0010652969358488917
385,-0.033518824726343155,-0.033518824726343155,-0.033518824726343155,0.0031958906911313534,0.0021305938716977835,0.0010652969358488917
386,-0.014365210197865963,-0.014365210197865963,-0.014365210197865963,0.0010652969358488917,0.0031958906911313534,0.0021305938716977835
387,0.0,0.0,0.0,0.0031958906911313534,0.0053264847956597805,0.0021305938716977835
388,-0.028730420395731926,-0.028730420395731926,-0.028730420395731926,0.004261187743395567,0.0,0.0021305938716977835
389,0.028730420395731926,0.028730420395731926,0.028730420395731926,0.004261187743395567,0.004261187743395567,0.004261187743395567
390,0.014365210197865963,0.014365210197865963,0.014365210197865963,0.004261187743395567,0.0010652969358488917,0.0010652969358488917
391,-0.05267243832349777,-0.05267243832349777,-0.05267243832349777,0.0031958906911313534,0.0010652969358488917,0.0021305938716977835
392,-0.033518824726343155,-0.033518824726343155,-0.033518824726343155,0.0031958906911313534,0.0031958906911313534,0.0010652969358488917
393,-0.05267243832349777,-0.05267243832349777,-0.05267243832349777,0.0010652969358488917,0.004261187743395567,0.0010652969358488917
394,-0.028730420395731926,-0.028730420395731926,-0.028730420395731926,0.0031958906911313534,0.0021305938716977835,0.004261187743395567
395,0.0,0.0,0.0,0.004261187743395567,0.0021305938716977835,0.0021305938716977835
396,-0.009576806798577309,-0.009576806798577309,-0.009576806798577309,0.0031958906911313534,0.0031958906911313534,0.0021305938716977835
397,-0.08140286058187485,-0.08140286058187485,-0.08140286058187485,0.0021305938716977835,0.0031958906911313534,0.0010652969358488917
398,-0.06224924325942993,-0.06224924325942993,-0.06224924325942993,0.0021305938716977835,0.0031958906911313534,0.0031958906911313534
399,-0.004788403399288654,-0.004788403399288654,-0.004788403399288654,0.0010652969358488917,0.004261187743395567,0.0031958906911313534
400,-0.023942016065120697,-0.023942016065120697,-0.023942016065120697,0.0021305938716977835,0.0031958906911313534,0.0021305938716977835
401,-0.009576806798577309,-0.009576806798577309,-0.009576806798577309,0.0031958906911313534,0.0021305938716977835,0.0021305938716977835
402,-0.038307227194309235,-0.038307227194309235,-0.038307227194309235,0.0010652969358488917,0.006391781382262707,0.0031958906911313534
403,-0.023942016065120697,-0.023942016065120697,-0.023942016065120697,0.0021305938716977835,0.0021305938716977835,0.0010652969358488917
404,-0.014365210197865963,-0.014365210197865963,-0.014365210197865963,0.004261187743395567,0.0021305938716977835,0.0010652969358488917
405,-0.05746084079146385,-0.05746084079146385,-0.05746084079146385,0.004261187743395567,0.0031958906911313534,0.0031958906911313534
406,-0.023942016065120697,-0.023942016065120697,-0.023942016065120697,0.004261187743395567,0.004261187743395567,0.0031958906911313534
407,0.033518824726343155,0.033518824726343155,0.033518824726343155,0.004261187743395567,0.0031958906911313534,0.0031958906911313534
408,-0.014365210197865963,-0.014365210197865963,-0.014365210197865963,0.0031958906911313534,0.004261187743395567,0.004261187743395567
409,-0.038307227194309235,-0.038307227194309235,-0.038307227194309235,0.0031958906911313534,0.0031958906911313534,0.004261187743395567
410,-0.038307227194309235,-0.038307227194309235,-0.038307227194309235,0.004261187743395567,0.0021305938716977835,0.0021305938716977835
411,-0.028730420395731926,-0.028730420395731926,-0.028730420395731926,0.0021305938716977835,0.004261187743395567,0.0021305938716977835
412,-0.05746084079146385,-0.05746084079146385,-0.05746084079146385,0.004261187743395567,0.0031958906911313534,0.0031958906911313534
413,-0.014365210197865963,-0.014365210197865963,-0.014365210197865963,0.0031958906911313534,0.0010652969358488917,0.0010652969358488917
414,-0.05267243832349777,-0.05267243832349777,-0.05267243832349777,0.0053264847956597805,0.004261187743395567,0.004261187743395567
415,-0.004788403399288654,-0.004788403399288654,-0.004788403399288654,0.0031958906911313534,0.0010652969358488917,0.0010652969358488917
416,0.004788403399288654,0.004788403399288654,0.004788403399288654,0.0031958906911313534,0.004261187743395567,0.0021305938716977835
417,-0.023942016065120697,-0.023942016065120697,-0.023942016065120697,0.004261187743395567,0.0031958906911313534,0.004261187743395567
418,-0.033518824726343155,-0.033518824726343155,-0.033518824726343155,0.0053264847956597805,0.0031958906911313534,0.0010652969358488917
419,-0.023942016065120697,-0.023942016065120697,-0.023942016065120697,0.004261187743395567,0.0021305938716977835,0.0021305938716977835
420,-0.043095629662275314,-0.043095629662275314,-0.043095629662275314,0.0031958906911313534,0.0031958906911313534,0.0031958906911313534
421,-0.014365210197865963,-0.014365210197865963,-0.014365210197865963,0.0021305938716977835,0.0031958906911313534,0.0
422,0.004788403399288654,0.004788403399288654,0.004788403399288654,0.0021305938716977835,0.0031958906911313534,0.0021305938716977835
423,-0.07182604819536209,-0.07182604819536209,-0.07182604819536209,0.0021305938716977835,0.0031958906911313534,0.004261187743395567
424,0.019153613597154617,0.019153613597154617,0.019153613597154617,0.004261187743395567,0.0010652969358488917,0.0021305938716977835
425,-0.028730420395731926,-0.028730420395731926,-0.028730420395731926,0.0021305938716977835,0.006391781382262707,0.004261187743395567
426,-0.023942016065120697,-0.023942016065120697,-0.023942016065120697,0.004261187743395567,0.004261187743395567,0.0021305938716977835
427,-0.06224924325942993,-0.06224924325942993,-0.06224924325942993,0.004261187743395567,0.004261187743395567,0.0021305938716977835
428,-0.009576806798577309,-0.009576806798577309,-0.009576806798577309,0.0031958906911313534,0.0053264847956597805,0.0010652969358488917
429,-0.014365210197865963,-0.014365210197865963,-0.014365210197865963,0.0031958906911313534,0.0031958906911313534,0.0021305938716977835
430,-0.05267243832349777,-0.05267243832349777,-0.05267243832349777,0.004261187743395567,0.0021305938716977835,0.0031958906911313534
431,-0.019153613597154617,-0.019153613597154617,-0.019153613597154617,0.004261187743395567,0.008522375486791134,0.0021305938716977835
432,-0.038307227194309235,-0.038307227194309235,-0.038307227194309235,0.004261187743395567,0.0021305938716977835,0.0010652969358488917
433,0.028730420395731926,0.028730420395731926,0.028730420395731926,0.0031958906911313534,0.004261187743395567,0.004261187743395567
434,-0.023942016065120697,-0.023942016065120697,-0.023942016065120697,0.0021305938716977835,0.004261187743395567,0.0021305938716977835
435,0.0,0.0,0.0,0.004261187743395567,0.004261187743395567,0.004261187743395567
436,0.009576806798577309,0.009576806798577309,0.009576806798577309,0.0053264847956597805,0.0021305938716977835,0.0
437,-0.009576806798577309,-0.009576806798577309,-0.009576806798577309,0.0021305938716977835,0.004261187743395567,0.0031958906911313534
438,-0.043095629662275314,-0.043095629662275314,-0.043095629662275314,0.0031958906911313534,0.0021305938716977835,0.004261187743395567
439,-0.043095629662275314,-0.043095629662275314,-0.043095629662275314,0.0010652969358488917,0.0010652969358488917,0.0021305938716977835
440,0.009576806798577309,0.009576806798577309,0.009576806798577309,0.0031958906911313534,0.004261187743395567,0.0
441,-0.028730420395731926,-0.028730420395731926,-0.028730420395731926,0.004261187743395567,0.0031958906911313534,0.0
442,-0.038307227194309235,-0.038307227194309235,-0.038307227194309235,0.004261187743395567,0.0021305938716977835,0.0021305938716977835
443,-0.009576806798577309,-0.009576806798577309,-0.009576806798577309,0.0053264847956597805,0.004261187743395567,0.0021305938716977835
444,-0.004788403399288654,-0.004788403399288654,-0.004788403399288654,0.0053264847956597805,0.004261187743395567,0.0031958906911313534
445,-0.004788403399288654,-0.004788403399288654,-0.004788403399288654,0.0021305938716977835,0.0010652969358488917,0.0031958906911313534
446,-0.07661445438861847,-0.07661445438861847,-0.07661445438861847,0.004261187743395567,0.0053264847956597805,0.0021305938716977835
447,-0.009576806798577309,-0.009576806798577309,-0.009576806798577309,0.0,0.004261187743395567,0.0021305938716977835
448,-0.023942016065120697,-0.023942016065120697,-0.023942016065120697,0.004261187743395567,0.0053264847956597805,0.0031958906911313534
449,0.009576806798577309,0.009576806798577309,0.009576806798577309,0.004261187743395567,0.004261187743395567,0.0031958906911313534
450,-0.009576806798577309,-0.009576806798577309,-0.009576806798577309,0.0031958906911313534,0.0021305938716977835,0.0021305938716977835
451,0.009576806798577309,0.009576806798577309,0.009576806798577309,0.0031958906911313534,0.0053264847956597805,0.0021305938716977835
452,-0.009576806798577309,-0.009576806798577309,-0.009576806798577309,0.004261187743395567,0.004261187743395567,0.0
453,-0.07182604819536209,-0.07182604819536209,-0.07182604819536209,0.004261187743395567,0.0021305938716977835,0.0010652969358488917
454,-0.019153613597154617,-0.019153613597154617,-0.019153613597154617,0.0031958906911313534,0.0021305938716977835,0.0031958906911313534
455,-0.07661445438861847,-0.07661445438861847,-0.07661445438861847,0.0031958906911313534,0.0021305938716977835,0.0031958906911313534
456,-0.019153613597154617,-0.019153613597154617,-0.019153613597154617,0.0031958906911313534,0.004261187743395567,0.0
457,-0.028730420395731926,-0.028730420395731926,-0.028730420395731926,0.0053264847956597805,0.0053264847956597805,0.0010652969358488917
458,-0.038307227194309235,-0.038307227194309235,-0.038307227194309235,0.0021305938716977835,0.0010652969358488917,0.0021305938716977835
459,-0.07182604819536209,-0.07182604819536209,-0.07182604819536209,0.0031958906911313534,0.0010652969358488917,0.0021305938716977835
460,-0.023942016065120697,-0.023942016065120697,-0.023942016065120697,0.004261187743395567,0.004261187743395567,0.0021305938716977835
461,-0.028730420395731926,-0.028730420395731926,-0.028730420395731926,0.0031958906911313534,0.0021305938716977835,0.004261187743395567
462,0.0,0.0,0.0,0.004261187743395567,0.0031958906911313534,0.0031958906911313534
463,-0.014365210197865963,-0.014365210197865963,-0.014365210197865963,0.0031958906911313534,0.0031958906911313534,0.0
464,-0.023942016065120697,-0.023942016065120697,-0.023942016065120697,0.0021305938716977835,0.006391781382262707,0.0021305938716977835
465,0.004788403399288654,0.004788403399288654,0.004788403399288654,0.004261187743395567,0.0031958906911313534,0.0031958906911313534
466,-0.043095629662275314,-0.043095629662275314,-0.043095629662275314,0.0031958906911313534,0.0031958906911313534,0.0031958906911313534
467,0.06224924325942993,0.06224924325942993,0.06224924325942993,0.0021305938716977835,0.0031958906911313534,0.0031958906911313534
468,-0.004788403399288654,-0.004788403399288654,-0.004788403399288654,0.0021305938716977835,0.0021305938716977835,0.0031958906911313534
469,0.023942016065120697,0.023942016065120697,0.023942016065120697,0.0031958906911313534,0.0010652969358488917,0.0021305938716977835
470,-0.028730420395731926,-0.028730420395731926,-0.028730420395731926,0.0021305938716977835,0.0010652969358488917,0.0010652969358488917
471,-0.033518824726343155,-0.033518824726343155,-0.033518824726343155,0.0021305938716977835,0.0021305938716977835,0.0021305938716977835
472,-0.033518824726343155,-0.033518824726343155,-0.033518824726343155,0.004261187743395567,0.006391781382262707,0.0031958906911313534
473,-0.047884032130241394,-0.047884032130241394,-0.047884032130241394,0.0031958906911313534,0.0010652969358488917,0.0031958906911313534
474,-0.06703764945268631,-0.06703764945268631,-0.06703764945268631,0.0010652969358488917,0.0031958906911313534,0.0010652969358488917
475,-0.05267243832349777,-0.05267243832349777,-0.05267243832349777,0.0031958906911313534,0.0021305938716977835,0.0031958906911313534
476,0.009576806798577309,0.009576806798577309,0.009576806798577309,0.0021305938716977835,0.0031958906911313534,0.0010652969358488917
477,0.019153613597154617,0.019153613597154617,0.019153613597154617,0.0010652969358488917,0.0010652969358488917,0.0010652969358488917
478,-0.033518824726343155,-0.033518824726343155,-0.033518824726343155,0.0021305938716977835,0.004261187743395567,0.0031958906911313534
479,-0.06224924325942993,-0.06224924325942993,-0.06224924325942993,0.006391781382262707,0.0010652969358488917,0.0031958906911313534
480,-0.043095629662275314,-0.043095629662275314,-0.043095629662275314,0.0031958906911313534,0.0031958906911313534,0.0010652969358488917
481,-0.019153613597154617,-0.019153613597154617,-0.019153613597154617,0.0,0.0031958906911313534,0.0021305938716977835
482,-0.004788403399288654,-0.004788403399288654,-0.004788403399288654,0.004261187743395567,0.0021305938716977835,0.0010652969358488917
483,0.009576806798577309,0.009576806798577309,0.009576806798577309,0.0,0.0021305938716977835,0.0021305938716977835
484,-0.009576806798577309,-0.009576806798577309,-0.009576806798577309,0.0021305938716977835,0.0010652969358488917,0.0
485,0.004788403399288654,0.004788403399288654,0.004788403399288654,0.0031958906911313534,0.0031958906911313534,0.0031958906911313534
486,-0.014365210197865963,-0.014365210197865963,-0.014365210197865963,0.0021305938716977835,0.0031958906911313534,0.004261187743395567
487,0.0,0.0,0.0,0.0031958906911313534,0.004261187743395567,0.0
488,-0.05746084079146385,-0.05746084079146385,-0.05746084079146385,0.004261187743395567,0.0031958906911313534,0.0010652969358488917
489,-0.014365210197865963,-0.014365210197865963,-0.014365210197865963,0.0053264847956597805,0.0021305938716977835,0.004261187743395567
490,0.009576806798577309,0.009576806798577309,0.009576806798577309,0.0021305938716977835,0.004261187743395567,0.0031958906911313534
491,-0.06224924325942993,-0.06224924325942993,-0.06224924325942993,0.0021305938716977835,0.0021305938716977835,0.0021305938716977835
492,-0.033518824726343155,-0.033518824726343155,-0.033518824726343155,0.004261187743395567,0.0021305938716977835,0.0021305938716977835
493,-0.004788403399288654,-0.004788403399288654,-0.004788403399288654,0.0031958906911313534,0.0031958906911313534,0.0031958906911313534
494,0.004788403399288654,0.004788403399288654,0.004788403399288654,0.004261187743395567,0.0031958906911313534,0.0021305938716977835
495,-0.033518824726343155,-0.033518824726343155,-0.033518824726343155,0.0021305938716977835,0.0031958906911313534,0.0010652969358488917
496,-0.05267243832349777,-0.05267243832349777,-0.05267243832349777,0.004261187743395567,0.004261187743395567,0.0010652969358488917
497,-0.047884032130241394,-0.047884032130241394,-0.047884032130241394,0.004261187743395567,0.0021305938716977835,0.0021305938716977835
498,-0.033518824726343155,-0.033518824726343155,-0.033518824726343155,0.0021305938716977835,0.0053264847956597805,0.0021305938716977835
499,-0.033518824726343155,-0.033518824726343155,-0.033518824726343155,0.004261187743395567,0.004261187743395567,0.0031958906911313534
500,-0.023942016065120697,-0.023942016065120697,-0.023942016065120697,0.0031958906911313534,0.0031958906911313534,0.0031958906911313534
501,-0.033518824726343155,-0.033518824726343155,-0.033518824726343155,0.0031958906911313534,0.0053264847956597805,0.0031958906911313534
502,0.028730420395731926,0.028730420395731926,0.028730420395731926,0.004261187743395567,0.004261187743395567,0.0021305938716977835
503,-0.06703764945268631,-0.06703764945268631,-0.06703764945268631,0.0021305938716977835,0.0021305938716977835,0.0021305938716977835
504,-0.043095629662275314,-0.043095629662275314,-0.043095629662275314,0.0031958906911313534,0.0010652969358488917,0.0031958906911313534
505,-0.014365210197865963,-0.014365210197865963,-0.014365210197865963,0.0010652969358488917,0.004261187743395567,0.0010652969358488917
506,-0.033518824726343155,-0.033518824726343155,-0.033518824726343155,0.004261187743395567,0.004261187743395567,0.0010652969358488917
507,-0.038307227194309235,-0.038307227194309235,-0.038307227194309235,0.0031958906911313534,0.0021305938716977835,0.0021305938716977835
508,-0.06224924325942993,-0.06224924325942993,-0.06224924325942993,0.0021305938716977835,0.0010652969358488917,0.0010652969358488917
509,0.014365210197865963,0.014365210197865963,0.014365210197865963,0.0021305938716977835,0.0031958906911313534,0.0010652969358488917
510,0.009576806798577309,0.009576806798577309,0.009576806798577309,0.004261187743395567,0.004261187743395567,0.004261187743395567
511,-0.10534487664699554,-0.10534487664699554,-0.10534487664699554,0.004261187743395567,0.0031958906911313534,0.0031958906911313534
512,-0.019153613597154617,-0.019153613597154617,-0.019153613597154617,0.0021305938716977835,0.004261187743395567,0.0
513,-0.028730420395731926,-0.028730420395731926,-0.028730420395731926,0.0021305938716977835,0.0021305938716977835,0.0010652969358488917
514,-0.05267243832349777,-0.05267243832349777,-0.05267243832349777,0.0021305938716977835,0.004261187743395567,0.0031958906911313534
515,-0.08140286058187485,-0.08140286058187485,-0.08140286058187485,0.004261187743395567,0.0031958906911313534,0.0021305938716977835
516,-0.06224924325942993,-0.06224924325942993,-0.06224924325942993,0.0021305938716977835,0.0010652969358488917,0.0031958906911313534
517,0.023942016065120697,0.023942016065120697,0.023942016065120697,0.0031958906911313534,0.0021305938716977835,0.0021305938716977835
518,0.023942016065120697,0.023942016065120697,0.023942016065120697,0.0031958906911313534,0.0021305938716977835,0.0021305938716977835
519,-0.014365210197865963,-0.014365210197865963,-0.014365210197865963,0.0021305938716977835,0.0031958906911313534,0.0021305938716977835
520,-0.033518824726343155,-0.033518824726343155,-0.033518824726343155,0.0053264847956597805,0.0021305938716977835,0.0031958906911313534
521,-0.019153613597154617,-0.019153613597154617,-0.019153613597154617,0.004261187743395567,0.0010652969358488917,0.0021305938716977835
522,0.038307227194309235,0.038307227194309235,0.038307227194309235,0.0021305938716977835,0.0031958906911313534,0.0031958906911313534
523,0.038307227194309235,0.038307227194309235,0.038307227194309235,0.0053264847956597805,0.004261187743395567,0.0021305938716977835
524,-0.009576806798577309,-0.009576806798577309,-0.009576806798577309,0.006391781382262707,0.0031958906911313534,0.0021305938716977835
525,-0.06703764945268631,-0.06703764945268631,-0.06703764945268631,0.0021305938716977835,0.0031958906911313534,0.0031958906911313534
526,-0.05267243832349777,-0.05267243832349777,-0.05267243832349777,0.0021305938716977835,0.0021305938716977835,0.0010652969358488917
527,0.023942016065120697,0.023942016065120697,0.023942016065120697,0.0031958906911313534,0.0010652969358488917,0.004261187743395567
528,-0.019153613597154617,-0.019153613597154617,-0.019153613597154617,0.0021305938716977835,0.004261187743395567,0.0021305938716977835
529,-0.028730420395731926,-0.028730420395731926,-0.028730420395731926,0.0053264847956597805,0.004261187743395567,0.0010652969358488917
530,-0.028730420395731926,-0.028730420395731926,-0.028730420395731926,0.0021305938716977835,0.004261187743395567,0.0021305938716977835
531,-0.014365210197865963,-0.014365210197865963,-0.014365210197865963,0.0021305938716977835,0.0031958906911313534,0.0031958906911313534
532,-0.004788403399288654,-0.004788403399288654,-0.004788403399288654,0.006391781382262707,0.004261187743395567,0.0031958906911313534
533,0.033518824726343155,0.033518824726343155,0.033518824726343155,0.0021305938716977835,0.004261187743395567,0.0031958906911313534
534,0.0,0.0,0.0,0.0031958906911313534,0.0021305938716977835,0.0010652969358488917
535,-0.038307227194309235,-0.038307227194309235,-0.038307227194309235,0.0021305938716977835,0.004261187743395567,0.0010652969358488917
536,-0.038307227194309235,-0.038307227194309235,-0.038307227194309235,0.0053264847956597805,0.004261187743395567,0.0031958906911313534
537,0.0,0.0,0.0,0.0010652969358488917,0.0021305938716977835,0.0021305938716977835
538,0.019153613597154617,0.019153613597154617,0.019153613597154617,0.0021305938716977835,0.0053264847956597805,0.0021305938716977835
539,-0.023942016065120697,-0.023942016065120697,-0.023942016065120697,0.0021305938716977835,0.0021305938716977835,0.0021305938716977835
540,-0.08140286058187485,-0.08140286058187485,-0.08140286058187485,0.0,0.0021305938716977835,0.0031958906911313534
541,-0.033518824726343155,-0.033518824726343155,-0.033518824726343155,0.0021305938716977835,0.0031958906911313534,0.0031958906911313534
542,-0.07182604819536209,-0.07182604819536209,-0.07182604819536209,0.0021305938716977835,0.0010652969358488917,0.0021305938716977835
543,-0.009576806798577309,-0.009576806798577309,-0.009576806798577309,0.004261187743395567,0.004261187743395567,0.0
544,-0.06703764945268631,-0.06703764945268631,-0.06703764945268631,0.0031958906911313534,0.0031958906911313534,0.0021305938716977835
545,0.0,0.0,0.0,0.0031958906911313534,0.004261187743395567,0.0021305938716977835
546,0.0,0.0,0.0,0.0031958906911313534,0.0031958906911313534,0.0010652969358488917
547,-0.033518824726343155,-0.033518824726343155,-0.033518824726343155,0.006391781382262707,0.0031958906911313534,0.0010652969358488917
548,-0.038307227194309235,-0.038307227194309235,-0.038307227194309235,0.0031958906911313534,0.0053264847956597805,0.0021305938716977835
549,-0.023942016065120697,-0.023942016065120697,-0.023942016065120697,0.0031958906911313534,0.0010652969358488917,0.0021305938716977835
550,-0.009576806798577309,-0.009576806798577309,-0.009576806798577309,0.0021305938716977835,0.0053264847956597805,0.0021305938716977835
551,-0.019153613597154617,-0.019153613597154617,-0.019153613597154617,0.004261187743395567,0.0031958906911313534,0.0010652969358488917
552,-0.038307227194309235,-0.038307227194309235,-0.038307227194309235,0.0031958906911313534,0.004261187743395567,0.0021305938716977835
553,-0.05746084079146385,-0.05746084079146385,-0.05746084079146385,0.0021305938716977835,0.0031958906911313534,0.0010652969358488917
554,-0.023942016065120697,-0.023942016065120697,-0.023942016065120697,0.0021305938716977835,0.0031958906911313534,0.0021305938716977835
555,0.014365210197865963,0.014365210197865963,0.014365210197865963,0.0053264847956597805,0.0031958906911313534,0.0010652969358488917
556,-0.028730420395731926,-0.028730420395731926,-0.028730420395731926,0.0021305938716977835,0.0021305938716977835,0.0031958906911313534
557,-0.019153613597154617,-0.019153613597154617,-0.019153613597154617,0.0021305938716977835,0.0053264847956597805,0.0031958906911313534
558,-0.07661445438861847,-0.07661445438861847,-0.07661445438861847,0.004261187743395567,0.0031958906911313534,0.0031958906911313534
559,0.019153613597154617,0.019153613597154617,0.019153613597154617,0.0021305938716977835,0.0021305938716977835,0.0021305938716977835
560,-0.004788403399288654,-0.004788403399288654,-0.004788403399288654,0.0021305938716977835,0.0010652969358488917,0.0010652969358488917
561,-0.014365210197865963,-0.014365210197865963,-0.014365210197865963,0.0031958906911313534,0.0031958906911313534,0.0021305938716977835
562,-0.014365210197865963,-0.014365210197865963,-0.014365210197865963,0.0031958906911313534,0.0010652969358488917,0.0021305938716977835
563,-0.028730420395731926,-0.028730420395731926,-0.028730420395731926,0.0031958906911313534,0.0021305938716977835,0.0021305938716977835
564,0.023942016065120697,0.023942016065120697,0.023942016065120697,0.0031958906911313534,0.0031958906911313534,0.0021305938716977835
565,-0.019153613597154617,-0.019153613597154617,-0.019153613597154617,0.0021305938716977835,0.006391781382262707,0.0031958906911313534
566,-0.014365210197865963,-0.014365210197865963,-0.014365210197865963,0.004261187743395567,0.0031958906911313534,0.0021305938716977835
567,-0.028730420395731926,-0.028730420395731926,-0.028730420395731926,0.0010652969358488917,0.0021305938716977835,0.0010652969358488917
568,-0.07182604819536209,-0.07182604819536209,-0.07182604819536209,0.004261187743395567,0.0031958906911313534,0.0021305938716977835
569,-0.07182604819536209,-0.07182604819536209,-0.07182604819536209,0.0031958906911313534,0.0021305938716977835,0.0031958906911313534
570,-0.043095629662275314,-0.043095629662275314,-0.043095629662275314,0.0031958906911313534,0.0010652969358488917,0.0031958906911313534
571,-0.047884032130241394,-0.047884032130241394,-0.047884032130241394,0.004261187743395567,0.0031958906911313534,0.0010652969358488917
572,-0.009576806798577309,-0.009576806798577309,-0.009576806798577309,0.0010652969358488917,0.0031958906911313534,0.0021305938716977835
573,-0.028730420395731926,-0.028730420395731926,-0.028730420395731926,0.0031958906911313534,0.0021305938716977835,0.0021305938716977835
574,-0.028730420395731926,-0.028730420395731926,-0.028730420395731926,0.0031958906911313534,0.0021305938716977835,0.0031958906911313534
575,-0.028730420395731926,-0.028730420395731926,-0.028730420395731926,0.0021305938716977835,0.0031958906911313534,0.004261187743395567
576,-0.023942016065120697,-0.023942016065120697,-0.023942016065120697,0.0010652969358488917,0.0021305938716977835,0.0021305938716977835
577,-0.038307227194309235,-0.038307227194309235,-0.038307227194309235,0.0053264847956597805,0.0031958906911313534,0.0031958906911313534
578,-0.009576806798577309,-0.009576806798577309,-0.009576806798577309,0.0021305938716977835,0.0021305938716977835,0.0021305938716977835
579,-0.047884032130241394,-0.047884032130241394,-0.047884032130241394,0.006391781382262707,0.0021305938716977835,0.0021305938716977835
580,-0.07182604819536209,-0.07182604819536209,-0.07182604819536209,0.0031958906911313534,-0.0010652969358488917,0.0021305938716977835
581,-0.023942016065120697,-0.023942016065120697,-0.023942016065120697,0.0021305938716977835,0.0031958906911313534,0.0021305938716977835
582,-0.014365210197865963,-0.014365210197865963,-0.014365210197865963,0.0053264847956597805,0.004261187743395567,0.0010652969358488917
583,0.009576806798577309,0.009576806798577309,0.009576806798577309,0.0021305938716977835,0.0,0.004261187743395567
584,-0.033518824726343155,-0.033518824726343155,-0.033518824726343155,0.0031958906911313534,0.0053264847956597805,0.0010652969358488917
585,-0.08140286058187485,-0.08140286058187485,-0.08140286058187485,0.004261187743395567,0.0021305938716977835,0.0021305938716977835
586,-0.019153613597154617,-0.019153613597154617,-0.019153613597154617,0.0031958906911313534,0.004261187743395567,0.0021305938716977835
587,0.0,0.0,0.0,-0.0010652969358488917,0.004261187743395567,0.004261187743395567
588,-0.033518824726343155,-0.033518824726343155,-0.033518824726343155,0.004261187743395567,0.0053264847956597805,0.004261187743395567
589,-0.023942016065120697,-0.023942016065120697,-0.023942016065120697,0.0010652969358488917,0.0010652969358488917,0.0021305938716977835
590,-0.009576806798577309,-0.009576806798577309,-0.009576806798577309,0.004261187743395567,0.004261187743395567,0.0010652969358488917
591,-0.043095629662275314,-0.043095629662275314,-0.043095629662275314,0.0053264847956597805,0.004261187743395567,0.0031958906911313534
592,-0.004788403399288654,-0.004788403399288654,-0.004788403399288654,0.0031958906911313534,0.0021305938716977835,0.0021305938716977835
593,-0.014365210197865963,-0.014365210197865963,-0.014365210197865963,0.0031958906911313534,0.0010652969358488917,0.0021305938716977835
594,0.009576806798577309,0.009576806798577309,0.009576806798577309,0.004261187743395567,0.0031958906911313534,0.004261187743395567
595,-0.033518824726343155,-0.033518824726343155,-0.033518824726343155,0.0010652969358488917,0.0021305938716977835,0.0021305938716977835
596,-0.047884032130241394,-0.047884032130241394,-0.047884032130241394,0.0031958906911313534,0.0031958906911313534,0.0010652969358488917
597,-0.019153613597154617,-0.019153613597154617,-0.019153613597154617,0.0031958906911313534,0.0053264847956597805,0.0021305938716977835
598,-0.019153613597154617,-0.019153613597154617,-0.019153613597154617,0.004261187743395567,0.004261187743395567,0.004261187743395567
599,-0.047884032130241394,-0.047884032130241394,-0.047884032130241394,0.0,0.0031958906911313534,0.004261187743395567
600,-0.07182604819536209,-0.07182604819536209,-0.07182604819536209,0.004261187743395567,0.0053264847956597805,0.0031958906911313534
601,-0.038307227194309235,-0.038307227194309235,-0.038307227194309235,-0.0010652969358488917,0.0031958906911313534,0.0021305938716977835
602,0.0,0.0,0.0,0.004261187743395567,0.0031958906911313534,0.0
603,-0.014365210197865963,-0.014365210197865963,-0.014365210197865963,0.0031958906911313534,0.0053264847956597805,0.0021305938716977835
604,-0.038307227194309235,-0.038307227194309235,-0.038307227194309235,0.0021305938716977835,0.0021305938716977835,0.0021305938716977835
605,-0.019153613597154617,-0.019153613597154617,-0.019153613597154617,0.0031958906911313534,0.0021305938716977835,0.0031958906911313534
606,-0.019153613597154617,-0.019153613597154617,-0.019153613597154617,0.0053264847956597805,0.0031958906911313534,0.0031958906911313534
607,-0.043095629662275314,-0.043095629662275314,-0.043095629662275314,0.0031958906911313534,0.0031958906911313534,0.0010652969358488917
608,-0.033518824726343155,-0.033518824726343155,-0.033518824726343155,0.004261187743395567,0.0031958906911313534,0.0021305938716977835
609,-0.07661445438861847,-0.07661445438861847,-0.07661445438861847,0.004261187743395567,0.0021305938716977835,0.004261187743395567
610,0.023942016065120697,0.023942016065120697,0.023942016065120697,0.0021305938716977835,0.0010652969358488917,0.0010652969358488917
611,0.0,0.0,0.0,0.0021305938716977835,0.0053264847956597805,0.0031958906911313534
612,-0.05267243832349777,-0.05267243832349777,-0.05267243832349777,0.0031958906911313534,0.0031958906911313534,0.0021305938716977835
613,0.0,0.0,0.0,0.0031958906911313534,0.0021305938716977835,0.0010652969358488917
614,-0.06703764945268631,-0.06703764945268631,-0.06703764945268631,0.0021305938716977835,0.0021305938716977835,0.0010652969358488917
615,-0.019153613597154617,-0.019153613597154617,-0.019153613597154617,0.004261187743395567,0.0031958906911313534,0.0021305938716977835
616,-0.004788403399288654,-0.004788403399288654,-0.004788403399288654,0.0031958906911313534,0.0010652969358488917,0.0021305938716977835
617,-0.019153613597154617,-0.019153613597154617,-0.019153613597154617,0.004261187743395567,0.0021305938716977835,0.0021305938716977835
618,-0.047884032130241394,-0.047884032130241394,-0.047884032130241394,0.0031958906911313534,0.0031958906911313534,0.0021305938716977835
619,0.009576806798577309,0.009576806798577309,0.009576806798577309,0.0031958906911313534,0.0010652969358488917,0.0010652969358488917
620,-0.014365210197865963,-0.014365210197865963,-0.014365210197865963,0.004261187743395567,0.0021305938716977835,0.0
621,-0.014365210197865963,-0.014365210197865963,-0.014365210197865963,0.0031958906911313534,0.0031958906911313534,0.0010652969358488917
622,-0.07661445438861847,-0.07661445438861847,-0.07661445438861847,0.0,0.0021305938716977835,0.0021305938716977835
623,-0.07182604819536209,-0.07182604819536209,-0.07182604819536209,0.0021305938716977835,0.004261187743395567,0.0021305938716977835
624,-0.05746084079146385,-0.05746084079146385,-0.05746084079146385,0.004261187743395567,0.0010652969358488917,0.0010652969358488917
625,-0.06703764945268631,-0.06703764945268631,-0.06703764945268631,0.0031958906911313534,0.0053264847956597805,0.0021305938716977835
626,-0.043095629662275314,-0.043095629662275314,-0.043095629662275314,0.0031958906911313534,0.0053264847956597805,0.0021305938716977835
627,-0.033518824726343155,-0.033518824726343155,-0.033518824726343155,0.0031958906911313534,0.004261187743395567,0.0021305938716977835
628,-0.05267243832349777,-0.05267243832349777,-0.05267243832349777,0.0031958906911313534,0.0031958906911313534,0.0010652969358488917
629,-0.05267243832349777,-0.05267243832349777,-0.05267243832349777,0.0021305938716977835,0.0021305938716977835,0.0021305938716977835
630,-0.038307227194309235,-0.038307227194309235,-0.038307227194309235,0.0031958906911313534,0.0010652969358488917,0.0031958906911313534
631,-0.047884032130241394,-0.047884032130241394,-0.047884032130241394,0.0021305938716977835,0.006391781382262707,0.0031958906911313534
632,-0.023942016065120697,-0.023942016065120697,-0.023942016065120697,0.0031958906911313534,0.004261187743395567,0.0021305938716977835
633,-0.019153613597154617,-0.019153613597154617,-0.019153613597154617,0.0021305938716977835,0.0031958906911313534,0.0010652969358488917
634,0.019153613597154617,0.019153613597154617,0.019153613597154617,0.0021305938716977835,0.0031958906911313534,0.0021305938716977835
635,-0.028730420395731926,-0.028730420395731926,-0.028730420395731926,0.004261187743395567,0.0021305938716977835,0.0010652969358488917
636,-0.06224924325942993,-0.06224924325942993,-0.06224924325942993,0.0031958906911313534,0.0031958906911313534,0.0031958906911313534
637,-0.043095629662275314,-0.043095629662275314,-0.043095629662275314,0.0031958906911313534,0.0031958906911313534,0.0021305938716977835
638,0.004788403399288654,0.004788403399288654,0.004788403399288654,0.0021305938716977835,0.0021305938716977835,0.004261187743395567
639,-0.043095629662275314,-0.043095629662275314,-0.043095629662275314,0.0053264847956597805,0.0031958906911313534,0.0031958906911313534
640,-0.038307227194309235,-0.038307227194309235,-0.038307227194309235,0.0021305938716977835,0.004261187743395567,0.004261187743395567
641,-0.009576806798577309,-0.009576806798577309,-0.009576806798577309,0.0031958906911313534,0.0053264847956597805,0.0031958906911313534
642,0.004788403399288654,0.004788403399288654,0.004788403399288654,0.0031958906911313534,0.0031958906911313534,0.0021305938716977835
643,0.038307227194309235,0.038307227194309235,0.038307227194309235,0.0031958906911313534,0.0031958906911313534,0.0031958906911313534
644,-0.05746084079146385,-0.05746084079146385,-0.05746084079146385,0.0021305938716977835,0.0021305938716977835,0.0
645,-0.038307227194309235,-0.038307227194309235,-0.038307227194309235,0.004261187743395567,0.004261187743395567,0.0010652969358488917
646,-0.043095629662275314,-0.043095629662275314,-0.043095629662275314,0.0031958906911313534,0.0031958906911313534,0.0021305938716977835
647,0.047884032130241394,0.047884032130241394,0.047884032130241394,0.0053264847956597805,0.0031958906911313534,0.0
648,-0.047884032130241394,-0.047884032130241394,-0.047884032130241394,0.0031958906911313534,0.0031958906911313534,0.0021305938716977835
649,0.009576806798577309,0.009576806798577309,0.009576806798577309,0.004261187743395567,0.0021305938716977835,0.0031958906911313534
650,-0.047884032130241394,-0.047884032130241394,-0.047884032130241394,0.0031958906911313534,0.004261187743395567,0.0031958906911313534
651,-0.004788403399288654,-0.004788403399288654,-0.004788403399288654,0.0031958906911313534,0.0031958906911313534,0.0031958906911313534
652,0.004788403399288654,0.004788403399288654,0.004788403399288654,0.0053264847956597805,0.004261187743395567,0.0021305938716977835
653,-0.004788403399288654,-0.004788403399288654,-0.004788403399288654,0.0021305938716977835,0.0021305938716977835,0.0031958906911313534
654,-0.033518824726343155,-0.033518824726343155,-0.033518824726343155,0.0031958906911313534,0.0031958906911313534,0.0010652969358488917
655,0.019153613597154617,0.019153613597154617,0.019153613597154617,0.0021305938716977835,0.0053264847956597805,0.0
656,-0.047884032130241394,-0.047884032130241394,-0.047884032130241394,0.0031958906911313534,0.0031958906911313534,0.0031958906911313534
657,0.004788403399288654,0.004788403399288654,0.004788403399288654,0.004261187743395567,0.0021305938716977835,0.0
658,-0.019153613597154617,-0.019153613597154617,-0.019153613597154617,0.0031958906911313534,0.0031958906911313534,0.0021305938716977835
659,-0.028730420395731926,-0.028730420395731926,-0.028730420395731926,0.0031958906911313534,0.0031958906911313534,0.0031958906911313534
660,0.009576806798577309,0.009576806798577309,0.009576806798577309,0.0021305938716977835,0.0053264847956597805,0.0
661,-0.014365210197865963,-0.014365210197865963,-0.014365210197865963,0.0021305938716977835,0.0031958906911313534,0.0021305938716977835
662,-0.038307227194309235,-0.038307227194309235,-0.038307227194309235,0.0021305938716977835,0.0031958906911313534,0.0021305938716977835
663,-0.004788403399288654,-0.004788403399288654,-0.004788403399288654,0.0031958906911313534,0.0021305938716977835,0.0021305938716977835
664,-0.038307227194309235,-0.038307227194309235,-0.038307227194309235,0.0031958906911313534,0.0010652969358488917,0.0021305938716977835
665,0.0,0.0,0.0,0.0010652969358488917,0.004261187743395567,0.004261187743395567
666,0.0,0.0,0.0,0.0,0.0021305938716977835,0.0010652969358488917
667,0.0,0.0,0.0,0.0031958906911313534,0.0021305938716977835,0.0010652969358488917
668,-0.038307227194309235,-0.038307227194309235,-0.038307227194309235,0.0031958906911313534,0.0031958906911313534,0.0031958906911313534
669,-0.06703764945268631,-0.06703764945268631,-0.06703764945268631,0.004261187743395567,0.004261187743395567,0.0053264847956597805
